Folder: Algorithmic-Trading/us_tickers_download/us_tickers

File: TGA.csv
Date,High,Low,Open,Close,Volume,Adj Close
2018-01-02,1.48,1.44,1.47,1.46,54800.0,1.38098
2018-01-08,1.44,1.42,1.44,1.44,119300.0,1.36207
2018-01-12,1.49,1.45,1.49,1.47,138000.0,1.39044
2018-01-19,1.49,1.45,1.47,1.48,33400.0,1.3999
2018-01-25,1.5,1.46,1.46,1.48,61000.0,1.3999
2018-01-31,1.48,1.38,1.4,1.47,118600.0,1.39044
2018-02-06,1.4,1.36,1.4,1.4,93400.0,1.32423
2018-02-12,1.33,1.27,1.27,1.33,70300.0,1.25802
2018-02-16,1.35,1.3,1.3,1.32,39700.0,1.24856
2018-02-23,1.32,1.28,1.29,1.32,9800.0,1.24856
2018-03-01,1.34,1.28,1.34,1.29,14300.0,1.22018
2018-03-07,1.32,1.27,1.3,1.28,64900.0,1.21073
2018-03-13,1.34,1.28,1.28,1.34,44200.0,1.26748
2018-03-19,1.35,1.32,1.32,1.34,27700.0,1.26748
2018-03-23,1.46,1.42,1.46,1.45,33200.0,1.37153
2018-03-29,1.35,1.31,1.33,1.34,47800.0,1.26748
2018-04-05,1.33,1.25,1.31,1.26,273200.0,1.19181
2018-04-11,1.34,1.29,1.29,1.32,91800.0,1.24856
2018-04-17,1.42,1.37,1.39,1.4,131000.0,1.32423
2018-04-23,1.6,1.53,1.6,1.57,136600.0,1.48503
2018-04-27,1.75,1.63,1.74,1.65,241500.0,1.5607
2018-05-03,1.94,1.85,1.87,1.93,144600.0,1.82555
2018-05-09,2.14,2.02,2.02,2.12,620600.0,2.00526
2018-05-15,2.02,1.9,1.93,1.95,367500.0,1.84447
2018-05-21,2.84,2.35,2.38,2.64,1888900.0,2.49712
2018-05-25,2.3,2.12,2.3,2.27,518800.0,2.14715
2018-06-01,2.58,2.43,2.56,2.47,415800.0,2.33632
2018-06-07,2.52,2.41,2.49,2.45,279100.0,2.3174
2018-06-13,2.45,2.36,2.39,2.4,401700.0,2.27011
2018-06-19,2.41,2.27,2.34,2.38,239500.0,2.25119
2018-06-25,2.43,2.32,2.36,2.4,165700.0,2.27011
2018-06-29,2.83,2.69,2.77,2.77,641600.0,2.62009
2018-07-06,2.95,2.86,2.94,2.94,503500.0,2.78089
2018-07-12,3.89,3.66,3.89,3.76,1408600.0,3.55651
2018-07-18,3.65,3.37,3.52,3.59,999100.0,3.39571
2018-07-24,3.53,3.37,3.37,3.37,685000.0,3.18761
2018-07-30,3.23,3.11,3.18,3.13,359500.0,2.9606
2018-08-03,3.27,3.16,3.17,3.22,581300.0,3.04573
2018-08-09,3.24,3.13,3.21,3.21,209200.0,3.03627
2018-08-15,3.12,2.83,3.11,2.93,731000.0,2.77143
2018-08-21,3.58,3.31,3.38,3.47,575500.0,3.2822
2018-08-27,3.53,3.42,3.49,3.47,231800.0,3.2822
2018-08-31,3.39,3.31,3.36,3.36,143000.0,3.21063
2018-09-07,3.24,3.16,3.19,3.21,119200.0,3.0673
2018-09-13,3.7,3.54,3.56,3.57,237800.0,3.4113
2018-09-19,3.41,3.35,3.4,3.39,184100.0,3.2393
2018-09-25,3.7,3.41,3.51,3.44,703300.0,3.28708
2018-10-01,3.57,3.35,3.35,3.52,466200.0,3.36352
2018-10-05,3.36,3.11,3.31,3.32,1167900.0,3.17241
2018-10-11,3.21,2.99,3.14,3.0,497800.0,2.86664
2018-10-17,3.13,3.01,3.11,3.09,230100.0,2.95264
2018-10-23,2.6,2.02,2.52,2.03,2656500.0,1.93976
2018-10-29,2.49,2.27,2.46,2.31,321100.0,2.20731
2018-11-02,2.48,2.31,2.46,2.36,218000.0,2.25509
2018-11-08,2.37,2.14,2.3,2.22,358600.0,2.12131
2018-11-14,2.42,2.12,2.41,2.15,243400.0,2.05442
2018-11-20,2.3,2.08,2.26,2.14,271700.0,2.04487
2018-11-27,2.17,1.97,2.14,2.01,248100.0,1.92065
2018-12-03,2.23,2.15,2.17,2.18,139500.0,2.08309
2018-12-10,1.98,1.8,1.98,1.81,350900.0,1.72954
2018-12-14,1.88,1.77,1.85,1.78,77100.0,1.70087
2018-12-20,1.66,1.55,1.66,1.62,302600.0,1.54798
2018-12-27,1.68,1.58,1.62,1.68,116300.0,1.60532
2019-01-03,1.89,1.76,1.85,1.89,73200.0,1.80598
2019-01-09,2.11,2.03,2.06,2.09,135900.0,1.99709
2019-01-15,2.01,1.94,1.96,1.96,55200.0,1.87287
2019-01-22,1.89,1.75,1.8,1.76,97100.0,1.68176
2019-01-28,1.85,1.77,1.84,1.79,16800.0,1.71043
2019-02-01,1.99,1.82,1.82,1.93,101700.0,1.8442
2019-02-07,1.94,1.83,1.93,1.87,23400.0,1.78687
2019-02-13,2.0,1.93,1.93,1.98,90000.0,1.89198
2019-02-20,2.19,1.97,2.14,2.01,96700.0,1.92065
2019-02-26,2.06,1.96,2.03,1.98,70000.0,1.89198
2019-03-04,2.04,1.98,2.0,1.98,74400.0,1.89198
2019-03-08,2.06,1.98,2.02,2.02,59000.0,1.9302
2019-03-14,2.19,2.03,2.1,2.08,106100.0,1.98753
2019-03-20,2.18,2.12,2.18,2.14,155900.0,2.04487
2019-03-26,1.9,1.72,1.87,1.75,448300.0,1.6722
2019-04-01,1.94,1.82,1.93,1.86,216800.0,1.81178
2019-04-05,1.86,1.77,1.79,1.84,88400.0,1.7923
2019-04-11,1.97,1.86,1.88,1.88,88100.0,1.83126
2019-04-17,1.87,1.83,1.83,1.86,58400.0,1.81178
2019-04-24,1.97,1.89,1.95,1.92,158900.0,1.87022
2019-04-30,1.97,1.92,1.95,1.95,58200.0,1.89944
2019-05-06,1.88,1.85,1.88,1.87,148500.0,1.82152
2019-05-10,1.83,1.78,1.8,1.78,103500.0,1.73385
2019-05-16,1.79,1.75,1.76,1.76,70200.0,1.71437
2019-05-22,1.69,1.6,1.66,1.6,102400.0,1.55852
2019-05-29,1.56,1.5,1.52,1.51,98100.0,1.47085
2019-06-04,1.55,1.49,1.53,1.54,64800.0,1.50007
2019-06-10,1.56,1.47,1.54,1.49,195500.0,1.45137
2019-06-14,1.47,1.38,1.47,1.4,122100.0,1.3637
2019-06-20,1.47,1.41,1.42,1.45,250900.0,1.41241
2019-06-26,1.45,1.37,1.41,1.42,220000.0,1.38319
2019-07-02,1.44,1.35,1.44,1.36,85300.0,1.32474
2019-07-09,1.38,1.34,1.35,1.37,101700.0,1.33448
2019-07-15,1.5,1.46,1.47,1.48,75300.0,1.44163
2019-07-19,1.46,1.42,1.43,1.45,102600.0,1.41241
2019-07-25,1.47,1.41,1.47,1.41,44800.0,1.37344
2019-07-31,1.55,1.47,1.49,1.55,195400.0,1.50981
2019-08-06,1.46,1.42,1.45,1.43,201500.0,1.39293
2019-08-12,1.48,1.4,1.42,1.48,124200.0,1.44163
2019-08-16,1.49,1.4,1.45,1.47,107700.0,1.43189
2019-08-22,1.45,1.42,1.45,1.43,38000.0,1.39293
2019-08-28,1.36,1.34,1.34,1.35,99900.0,1.315
2019-09-04,1.37,1.33,1.35,1.35,261900.0,1.35
2019-09-10,1.5,1.44,1.46,1.49,260700.0,1.49
2019-09-16,1.6,1.49,1.5,1.52,382500.0,1.52
2019-09-20,1.48,1.4,1.48,1.43,216400.0,1.43
2019-09-26,1.37,1.34,1.37,1.36,169800.0,1.36
2019-10-02,1.32,1.26,1.31,1.28,233300.0,1.28
2019-10-08,1.35,1.29,1.35,1.31,91700.0,1.31
2019-10-14,1.3,1.28,1.29,1.3,35700.0,1.3
2019-10-18,1.29,1.24,1.27,1.25,110800.0,1.25
2019-10-24,1.27,1.22,1.24,1.23,123700.0,1.23
2019-10-30,1.19,1.16,1.18,1.17,80600.0,1.17
2019-11-05,1.28,1.23,1.24,1.26,110900.0,1.26
2019-11-11,1.23,1.2,1.22,1.22,76700.0,1.22
2019-11-15,1.19,1.17,1.17,1.18,123400.0,1.18
2019-11-21,1.17,1.14,1.15,1.14,103500.0,1.14
2019-11-27,1.17,1.14,1.16,1.14,77100.0,1.14
2019-12-04,1.15,1.11,1.13,1.14,220900.0,1.14
2019-12-10,1.2,1.16,1.19,1.19,99400.0,1.19
2019-12-16,1.32,1.26,1.27,1.28,179400.0,1.28
2019-12-20,1.46,1.36,1.36,1.45,409800.0,1.45
2019-12-27,1.47,1.43,1.43,1.43,134400.0,1.43
2020-01-03,1.5,1.42,1.49,1.45,257400.0,1.45
2020-01-09,1.4,1.26,1.33,1.39,299500.0,1.39
2020-01-15,1.4,1.34,1.4,1.36,78500.0,1.36
2020-01-22,1.37,1.33,1.36,1.36,83400.0,1.36
2020-01-28,1.28,1.22,1.23,1.26,79200.0,1.26
2020-02-03,1.28,1.22,1.28,1.25,79300.0,1.25
2020-02-07,1.3,1.24,1.3,1.28,78300.0,1.28
2020-02-13,1.27,1.21,1.27,1.23,41300.0,1.23
2020-02-20,1.24,1.2,1.22,1.22,88600.0,1.22
2020-02-26,1.21,1.05,1.17,1.14,173100.0,1.14
2020-03-03,1.15,1.07,1.11,1.11,64500.0,1.11
2020-03-09,0.8,0.64,0.8,0.69,884200.0,0.69
2020-03-13,0.58,0.46,0.58,0.48,443700.0,0.48
2020-03-19,0.45,0.32,0.45,0.38,206300.0,0.38
2020-03-25,0.53,0.4,0.43,0.47,590200.0,0.47
2020-03-31,0.4,0.35,0.36,0.36,236500.0,0.36
2020-04-06,0.43,0.38,0.4,0.41,126400.0,0.41
2020-04-13,0.5,0.42,0.49,0.43,199900.0,0.43
2020-04-17,0.44,0.38,0.42,0.44,93100.0,0.44
2020-04-23,0.47,0.4,0.43,0.45,115300.0,0.45
2020-04-29,0.58,0.47,0.48,0.56,347600.0,0.56
2020-05-05,0.63,0.56,0.57,0.56,265000.0,0.56
2020-05-11,0.56,0.5,0.56,0.52,87200.0,0.52
2020-05-15,0.5,0.45,0.47,0.5,91000.0,0.5
2020-05-21,0.57,0.51,0.54,0.57,88300.0,0.57
2020-05-28,0.56,0.51,0.56,0.54,149800.0,0.54
2020-06-03,0.56,0.5,0.52,0.54,166400.0,0.54
2020-06-09,0.73,0.64,0.73,0.69,268500.0,0.69
2020-06-15,0.6,0.55,0.57,0.59,103800.0,0.59
2020-06-19,0.59,0.55,0.56,0.55,196300.0,0.55
2020-06-25,0.59,0.54,0.56,0.56,70600.0,0.56
2020-07-01,0.64,0.55,0.57,0.59,105800.0,0.59
2020-07-08,0.64,0.6,0.64,0.63,140600.0,0.63
2020-07-14,0.6,0.58,0.59,0.59,102500.0,0.59
2020-07-20,0.61,0.56,0.61,0.58,77800.0,0.58
2020-07-24,0.6,0.57,0.6,0.59,114600.0,0.59
2020-07-30,0.59,0.56,0.59,0.57,120800.0,0.57
2020-08-05,0.62,0.59,0.59,0.6,190700.0,0.6
2020-08-11,0.63,0.58,0.62,0.61,108600.0,0.61
2020-08-17,0.61,0.59,0.59,0.6,188900.0,0.6
2020-08-21,0.57,0.53,0.56,0.57,314100.0,0.57
2020-08-27,0.58,0.53,0.58,0.55,249300.0,0.55
2020-09-02,0.55,0.53,0.53,0.53,145000.0,0.53
2020-09-09,0.49,0.45,0.49,0.47,95800.0,0.47
2020-09-15,0.5,0.46,0.46,0.46,122500.0,0.46
2020-09-21,0.42,0.39,0.39,0.41,127300.0,0.41
2020-09-25,0.41,0.39,0.4,0.4,200200.0,0.4
2020-10-01,0.41,0.38,0.41,0.4,124600.0,0.4
2020-10-07,0.41,0.39,0.4,0.41,129000.0,0.41
2020-10-13,0.46,0.41,0.43,0.44,247600.0,0.44
2020-10-19,0.48,0.44,0.46,0.44,93900.0,0.44
2020-10-23,0.5,0.41,0.48,0.42,1523200.0,0.42
2020-10-29,0.41,0.38,0.39,0.38,157500.0,0.38
2020-11-04,0.43,0.4,0.43,0.41,41900.0,0.41
2020-11-10,0.43,0.41,0.42,0.43,270500.0,0.43
2020-11-16,0.46,0.42,0.43,0.44,386100.0,0.44
2020-11-20,0.48,0.46,0.47,0.47,145800.0,0.47
2020-11-27,0.54,0.51,0.54,0.53,321300.0,0.53
2020-12-03,1.02,0.5,0.51,0.64,21854500.0,0.64
2020-12-09,0.95,0.88,0.95,0.94,797100.0,0.94
2020-12-15,1.03,0.93,1.0,0.95,284000.0,0.95
2020-12-21,0.9,0.81,0.89,0.83,634000.0,0.83
2020-12-28,1.01,0.92,1.01,0.95,241200.0,0.95
2021-01-04,0.96,0.88,0.95,0.91,306600.0,0.91
2021-01-08,1.15,0.99,1.01,1.14,1004400.0,1.14
2021-01-14,1.19,1.12,1.16,1.18,639600.0,1.18
2021-01-21,1.17,1.06,1.13,1.15,892700.0,1.15
2021-01-27,1.14,1.0,1.02,1.03,438500.0,1.03
2021-02-02,1.16,1.07,1.07,1.13,468600.0,1.13
2021-02-08,1.32,1.23,1.27,1.32,907700.0,1.32
2021-02-12,1.43,1.34,1.41,1.4,487600.0,1.4
2021-02-19,1.39,1.3,1.38,1.38,252300.0,1.38
2021-02-25,1.62,1.41,1.58,1.45,539200.0,1.45
2021-03-03,1.52,1.44,1.46,1.47,338900.0,1.47
2021-03-09,1.57,1.5,1.56,1.55,257200.0,1.55
2021-03-15,1.94,1.68,1.73,1.81,923800.0,1.81
2021-03-19,1.7,1.55,1.62,1.68,345300.0,1.68
2021-03-25,1.62,1.45,1.62,1.6,291300.0,1.6
2021-03-31,1.59,1.55,1.59,1.58,95600.0,1.58
2021-04-07,1.58,1.42,1.51,1.46,233300.0,1.46
2021-04-13,1.51,1.43,1.46,1.47,331500.0,1.47
2021-04-19,1.57,1.5,1.5,1.54,83700.0,1.54
2021-04-20,1.54,1.52,1.54,1.53,14537.0,1.53