Folder: Algorithmic-Trading/us_tickers

File: TGA.csv
Date,High,Low,Open,Close,Volume,Adj Close,TP,CCI,20SMA,40SMA,50SMA,100SMA,60VMA
2018-01-02,1.48,1.44,1.47,1.46,54800.0,1.38098,1.46,,,,,,
2018-01-12,1.49,1.45,1.49,1.47,138000.0,1.39044,1.47,75.4717,,,,,
2018-01-25,1.5,1.46,1.46,1.48,61000.0,1.3999,1.48,100,,,,,
2018-02-06,1.4,1.36,1.4,1.4,93400.0,1.32423,1.38667,-96.2199,1.4555,,,,
2018-02-16,1.35,1.3,1.3,1.32,39700.0,1.24856,1.32333,30.3031,1.3975,,,,
2018-03-01,1.34,1.28,1.34,1.29,14300.0,1.22018,1.30333,-22.7273,1.3345,1.39625,,,
2018-03-13,1.34,1.28,1.28,1.34,44200.0,1.26748,1.32,136.752,1.3015,1.364,,,
2018-03-23,1.46,1.42,1.46,1.45,33200.0,1.37153,1.44333,88.964,1.327,1.3465,1.3706,,
2018-04-05,1.33,1.25,1.31,1.26,273200.0,1.19181,1.28,-160.494,1.343,1.3235,1.3484,,70940.0
2018-04-17,1.42,1.37,1.39,1.4,131000.0,1.32423,1.39667,100.358,1.3495,1.32725,1.329,,68090.0
2018-04-27,1.75,1.63,1.74,1.65,241500.0,1.5607,1.67667,115.885,1.4225,1.37975,1.3648,,76453.3
2018-05-09,2.14,2.02,2.02,2.12,620600.0,2.00526,2.09333,144.444,1.671,1.506,1.463,,98493.3
2018-05-21,2.84,2.35,2.38,2.64,1888900.0,2.49712,2.61,156.524,1.9255,1.64675,1.5908,,169473
2018-06-01,2.58,2.43,2.56,2.47,415800.0,2.33632,2.49333,66.6667,2.182,1.8575,1.7564,1.5635,239695.0
2018-06-13,2.45,2.36,2.39,2.4,401700.0,2.27011,2.40333,-25.89,2.361,2.0725,1.9236,1.6394,278927
2018-06-25,2.43,2.32,2.36,2.4,165700.0,2.27011,2.38333,55.5556,2.391,2.2275,2.0886,1.7098,311430.0
2018-07-06,2.95,2.86,2.94,2.94,503500.0,2.78089,2.91667,76.0234,2.5175,2.39325,2.2876,1.82,389177
2018-07-18,3.65,3.37,3.52,3.59,999100.0,3.39571,3.53667,-97.8121,3.031,2.706,2.58,2.0065,570410.0
2018-07-30,3.23,3.11,3.18,3.13,359500.0,2.9606,3.15667,-108.844,3.3725,2.901,2.7992,2.172,613220.0
2018-08-09,3.24,3.13,3.21,3.21,209200.0,3.03627,3.19333,8.47475,3.3675,3.0575,2.9322,2.3219,618818
2018-08-21,3.58,3.31,3.38,3.47,575500.0,3.2822,3.45333,122.777,3.195,3.222,3.048,2.4643,616430.0
2018-08-31,3.39,3.31,3.36,3.36,143000.0,3.21063,3.35333,-166.667,3.275,3.35925,3.2232,2.6352,607783
2018-09-13,3.7,3.54,3.56,3.57,237800.0,3.4113,3.60333,36.0065,3.4,3.31825,3.3546,2.7948,622235.0
2018-09-25,3.7,3.41,3.51,3.44,703300.0,3.28708,3.51667,141.304,3.4315,3.33375,3.3464,2.9303,602307
2018-10-05,3.36,3.11,3.31,3.32,1167900.0,3.17241,3.26333,-123.563,3.449,3.37125,3.3344,3.0437,543225.0
2018-10-17,3.13,3.01,3.11,3.09,230100.0,2.95264,3.07667,-6.53595,3.285,3.36675,3.328,3.1137,455060.0
2018-10-29,2.49,2.27,2.46,2.31,321100.0,2.20731,2.35667,13.7395,2.9435,3.184,3.233,3.1208,522010.0
2018-11-08,2.37,2.14,2.3,2.22,358600.0,2.12131,2.24333,-166.667,2.567,2.967,3.059,3.1203,465417
2018-11-20,2.3,2.08,2.26,2.14,271700.0,2.04487,2.17333,-69.9234,2.305,2.723,2.8718,3.0972,435960.0
2018-12-03,2.23,2.15,2.17,2.18,139500.0,2.08309,2.18667,101.161,2.2095,2.47375,2.6578,3.0115,425757
2018-12-14,1.88,1.77,1.85,1.78,77100.0,1.70087,1.81,-164.634,2.0655,2.2285,2.4182,2.8771,395153
2018-12-27,1.68,1.58,1.62,1.68,116300.0,1.60532,1.64667,113.636,1.854,2.054,2.1708,2.7502,357798
2019-01-09,2.11,2.03,2.06,2.09,135900.0,1.99709,2.07667,76.0626,1.8005,1.96775,2.0462,2.6539,305857
2019-01-22,1.89,1.75,1.8,1.76,97100.0,1.68176,1.8,-141.026,1.8635,1.911,1.9756,2.5399,212727
2019-02-01,1.99,1.82,1.82,1.93,101700.0,1.8442,1.91333,147.239,1.9035,1.846,1.9078,2.4177,168245.0
2019-02-13,2.0,1.93,1.93,1.98,90000.0,1.89198,1.97,153.285,1.8625,1.84375,1.8682,2.2859,140150.0
2019-02-26,2.06,1.96,2.03,1.98,70000.0,1.89198,2.0,-141.204,1.9435,1.92225,1.8746,2.1792,128348
2019-03-08,2.06,1.98,2.02,2.02,59000.0,1.9302,2.02,-50.3145,2.002,1.9405,1.927,2.0767,111953
2019-03-20,2.18,2.12,2.18,2.14,155900.0,2.04487,2.14667,53.4351,2.0525,1.975,1.9714,2.0154,101877
2019-04-01,1.94,1.82,1.93,1.86,216800.0,1.81178,1.87333,56.8783,2.005,1.99075,1.9554,1.9766,107743
2019-04-11,1.97,1.86,1.88,1.88,88100.0,1.83126,1.90333,80.5244,1.92,1.98,1.9634,1.9426,106440.0
2019-04-24,1.97,1.89,1.95,1.92,158900.0,1.87022,1.92667,37.037,1.867,1.949,1.9638,1.9193,114262
2019-05-06,1.88,1.85,1.88,1.87,148500.0,1.82152,1.86667,-78.0781,1.895,1.92825,1.9454,1.9076,112800.0
2019-05-16,1.79,1.75,1.76,1.76,70200.0,1.71437,1.76667,-48.2456,1.861,1.865,1.9096,1.9087,113297
2019-05-29,1.56,1.5,1.52,1.51,98100.0,1.47085,1.52333,-53.719,1.73,1.80575,1.8326,1.8993,119585.0
2019-06-10,1.56,1.47,1.54,1.49,195500.0,1.45137,1.50667,-142.857,1.597,1.7395,1.7626,1.8603,121565.0
2019-06-20,1.47,1.41,1.42,1.45,250900.0,1.41241,1.44333,92.1986,1.483,1.6485,1.6962,1.8277,108790.0
2019-07-02,1.44,1.35,1.44,1.36,85300.0,1.32474,1.38333,-142.857,1.4365,1.546,1.6188,1.7901,113288
2019-07-15,1.5,1.46,1.47,1.48,75300.0,1.44163,1.48,67.6328,1.41,1.47125,1.5378,1.745,121133
2019-07-25,1.47,1.41,1.47,1.41,44800.0,1.37344,1.43,-111.111,1.419,1.44025,1.4774,1.6994,116288
2019-08-06,1.46,1.42,1.45,1.43,201500.0,1.39293,1.43667,-92.5926,1.4535,1.42875,1.4464,1.6513,124387
2019-08-16,1.49,1.4,1.45,1.47,107700.0,1.43189,1.45333,-24.7748,1.454,1.4335,1.4368,1.6062,125447
2019-08-28,1.36,1.34,1.34,1.35,99900.0,1.315,1.35,-35.7143,1.4315,1.43125,1.4258,1.5699,123413
2019-09-10,1.5,1.44,1.46,1.49,260700.0,1.49,1.47667,110.778,1.4015,1.4255,1.4216,1.5309,127282
2019-09-20,1.48,1.4,1.48,1.43,216400.0,1.43,1.43667,-96.4913,1.4035,1.42875,1.4322,1.4936,131463
2019-10-02,1.32,1.26,1.31,1.28,233300.0,1.28,1.28667,-153.846,1.407,1.40625,1.416,1.4534,141408
2019-10-14,1.3,1.28,1.29,1.3,35700.0,1.3,1.29333,-23.2559,1.3485,1.3745,1.3904,1.4198,137045.0
2019-10-24,1.27,1.22,1.24,1.23,123700.0,1.23,1.24,-76.9231,1.283,1.3475,1.3582,1.3988,136623
2019-11-05,1.28,1.23,1.24,1.26,110900.0,1.26,1.25667,121.212,1.239,1.31075,1.3236,1.3765,141003
2019-11-15,1.19,1.17,1.17,1.18,123400.0,1.18,1.18,-39.2157,1.2085,1.26025,1.2998,1.3594,137090.0
2019-11-27,1.17,1.14,1.16,1.14,77100.0,1.14,1.15,39.2157,1.178,1.21825,1.2484,1.3405,142448
2019-12-10,1.2,1.16,1.19,1.19,99400.0,1.19,1.18333,52.0834,1.1515,1.18925,1.211,1.3163,140488
2019-12-20,1.46,1.36,1.36,1.45,409800.0,1.45,1.42333,117.552,1.208,1.19775,1.2104,1.3044,147627
2020-01-03,1.5,1.42,1.49,1.45,257400.0,1.45,1.45667,52.8455,1.3315,1.247,1.2388,1.3034,161360.0
2020-01-15,1.4,1.34,1.4,1.36,78500.0,1.36,1.36667,-53.1401,1.4045,1.28475,1.2702,1.2987,165285.0
2020-01-28,1.28,1.22,1.23,1.26,79200.0,1.26,1.25333,-61.1111,1.3715,1.32025,1.2854,1.2968,164390.0
2020-02-07,1.3,1.24,1.3,1.28,78300.0,1.28,1.27333,-18.5186,1.3165,1.34525,1.3066,1.2835,160943
2020-02-20,1.24,1.2,1.22,1.22,88600.0,1.22,1.22,-6.94444,1.2535,1.331,1.3194,1.2681,156790.0
2020-03-03,1.15,1.07,1.11,1.11,64500.0,1.11,1.11,44.4445,1.2035,1.27,1.3042,1.2546,158900.0
2020-03-13,0.58,0.46,0.58,0.48,443700.0,0.48,0.506667,-99.1254,1.0135,1.14925,1.2002,1.2153,182053
2020-03-25,0.53,0.4,0.43,0.47,590200.0,0.47,0.466667,138.643,0.704,0.971,1.0422,1.1521,186807
2020-04-06,0.43,0.38,0.4,0.41,126400.0,0.41,0.406667,72.6496,0.446,0.79175,0.8874,1.0851,190152
2020-04-17,0.44,0.38,0.42,0.44,93100.0,0.44,0.42,-75.3968,0.4095,0.634,0.7546,1.0276,192440.0
2020-04-29,0.58,0.47,0.48,0.56,347600.0,0.56,0.536667,166.667,0.435,0.49775,0.6296,0.9734,193215.0
2020-05-11,0.56,0.5,0.56,0.52,87200.0,0.52,0.526667,-95.2381,0.4925,0.4515,0.5314,0.9212,204493
2020-05-21,0.57,0.51,0.54,0.57,88300.0,0.57,0.55,125,0.525,0.469,0.464,0.8503,200997
2020-06-03,0.56,0.5,0.52,0.54,166400.0,0.54,0.533333,55.5556,0.527,0.5,0.4788,0.78,184008
2020-06-15,0.6,0.55,0.57,0.59,103800.0,0.59,0.58,-61.4657,0.5725,0.53825,0.5164,0.7196,186730.0
2020-06-25,0.59,0.54,0.56,0.56,70600.0,0.56,0.563333,-66.6666,0.585,0.56075,0.5392,0.6641,168802
2020-07-08,0.64,0.6,0.64,0.63,140600.0,0.63,0.623333,29.5699,0.585,0.56775,0.5638,0.6104,159258
2020-07-20,0.61,0.56,0.61,0.58,77800.0,0.58,0.583333,-65.2174,0.5885,0.58375,0.5704,0.5619,158213
2020-07-30,0.59,0.56,0.59,0.57,120800.0,0.57,0.573333,-156.863,0.5945,0.594,0.5832,0.5268,158982
2020-08-11,0.63,0.58,0.62,0.61,108600.0,0.61,0.606667,41.6666,0.592,0.5885,0.5922,0.5326,165810.0
2020-08-21,0.57,0.53,0.56,0.57,314100.0,0.57,0.556667,-103.825,0.5925,0.59225,0.5892,0.5482,170888
2020-09-02,0.55,0.53,0.53,0.53,145000.0,0.53,0.536667,-105.263,0.5755,0.5825,0.5834,0.5586,152285.0
2020-09-15,0.5,0.46,0.46,0.46,122500.0,0.46,0.473333,96.7742,0.523,0.5585,0.5662,0.5619,151812
2020-09-25,0.41,0.39,0.4,0.4,200200.0,0.4,0.4,-83.3333,0.464,0.52425,0.5366,0.5527,169740.0
2020-10-07,0.41,0.39,0.4,0.41,129000.0,0.41,0.403333,76.9231,0.418,0.48475,0.5068,0.5438,170098
2020-10-19,0.48,0.44,0.46,0.44,93900.0,0.44,0.453333,64.5161,0.425,0.4585,0.486,0.5373,192878
2020-10-29,0.41,0.38,0.39,0.38,157500.0,0.38,0.39,-75.7576,0.4305,0.433,0.456,0.5232,263833
2020-11-10,0.43,0.41,0.42,0.43,270500.0,0.43,0.423333,72.9167,0.421,0.42125,0.434,0.5096,280547
2020-11-20,0.48,0.46,0.47,0.47,145800.0,0.47,0.47,116.667,0.421,0.4265,0.4262,0.4992,291027
2020-12-03,1.02,0.5,0.51,0.64,21854500.0,0.64,0.72,166.667,0.4715,0.451,0.441,0.4927,684070.0
2020-12-15,1.03,0.93,1.0,0.95,284000.0,0.95,0.97,27.7778,0.66,0.53925,0.5212,0.5176,815040.0
2020-12-28,1.01,0.92,1.01,0.95,241200.0,0.95,0.96,57.0902,0.838,0.641,0.597,0.5447,825328
2021-01-08,1.15,0.99,1.01,1.14,1004400.0,1.14,1.09333,146.63,0.947,0.75125,0.6826,0.5736,839408
2021-01-21,1.17,1.06,1.13,1.15,892700.0,1.15,1.12667,-89.9472,1.034,0.892,0.8014,0.6202,823427
2021-02-02,1.16,1.07,1.07,1.13,468600.0,1.13,1.12,79.1246,1.093,1.0025,0.9044,0.665,867097
2021-02-12,1.43,1.34,1.41,1.4,487600.0,1.4,1.39,78.078,1.1895,1.08675,1.0366,0.7354,923902
2021-02-25,1.62,1.41,1.58,1.45,539200.0,1.45,1.49333,44.7531,1.324,1.191,1.1382,0.8189,939645.0
2021-03-09,1.57,1.5,1.56,1.55,257200.0,1.55,1.54,95.2381,1.452,1.2965,1.2308,0.9033,510162
2021-03-19,1.7,1.55,1.62,1.68,345300.0,1.68,1.64333,-93.1143,1.574,1.40625,1.3512,1.0035,507857
2021-03-31,1.59,1.55,1.59,1.58,95600.0,1.58,1.57333,-10.101,1.617,1.50925,1.4252,1.099,501250.0
2021-04-13,1.51,1.43,1.46,1.47,331500.0,1.47,1.47,-33.3334,1.5765,1.5455,1.4926,1.1849,473272
2021-04-20,1.54,1.52,1.54,1.53,14537.0,1.53,1.53,-93.7502,1.544,1.5635,1.529,1.2398,434163.95