Folder: Algorithmic-Trading/us market/us_tickers_history

File: TGA.csv
Date,High,Low,Open,Close,Volume,Adj Close
2020-02-25,1.23,1.16,1.21,1.18,165500,1.18
2020-02-27,1.14,1.02,1.13,1.08,409700,1.08
2020-03-02,1.12,1.07,1.09,1.1,69200,1.1
2020-03-04,1.12,1.08,1.11,1.09,47100,1.09
2020-03-06,1.07,0.95,1.06,0.97,379800,0.97
2020-03-10,0.83,0.68,0.75,0.79,188500,0.79
2020-03-12,0.6,0.49,0.5,0.56,446400,0.56
2020-03-16,0.52,0.36,0.36,0.51,190200,0.51
2020-03-18,0.43,0.34,0.42,0.39,290400,0.39
2020-03-20,0.4,0.34,0.4,0.38,329400,0.38
2020-03-24,0.45,0.38,0.4,0.42,160900,0.42
2020-03-26,0.53,0.4,0.5,0.4,332000,0.4
2020-03-30,0.41,0.35,0.41,0.36,196800,0.36
2020-04-01,0.41,0.3,0.4,0.34,361000,0.34
2020-04-03,0.48,0.36,0.39,0.4,380600,0.4
2020-04-07,0.44,0.39,0.41,0.4,130300,0.4
2020-04-09,0.51,0.45,0.46,0.48,214800,0.48
2020-04-14,0.47,0.42,0.43,0.44,125000,0.44
2020-04-16,0.47,0.38,0.43,0.41,84700,0.41
2020-04-20,0.46,0.4,0.44,0.43,96300,0.43
2020-04-22,0.45,0.4,0.44,0.43,80300,0.43
2020-04-24,0.51,0.45,0.46,0.45,128600,0.45
2020-04-28,0.47,0.43,0.45,0.47,81500,0.47
2020-04-30,0.67,0.58,0.6,0.62,321600,0.62
2020-05-04,0.65,0.53,0.57,0.55,134100,0.55
2020-05-06,0.6,0.51,0.59,0.53,74000,0.53
2020-05-08,0.55,0.51,0.54,0.55,114800,0.55
2020-05-12,0.52,0.47,0.5,0.49,164900,0.49
2020-05-14,0.48,0.45,0.47,0.47,61000,0.47
2020-05-18,0.53,0.51,0.52,0.52,121100,0.52
2020-05-20,0.54,0.5,0.53,0.54,177200,0.54
2020-05-22,0.57,0.53,0.54,0.54,69000,0.54
2020-05-27,0.57,0.52,0.56,0.54,88800,0.54
2020-05-29,0.53,0.5,0.52,0.53,142600,0.53
2020-06-02,0.54,0.49,0.5,0.52,306700,0.52
2020-06-04,0.61,0.52,0.55,0.59,279900,0.59
2020-06-08,0.75,0.66,0.7,0.71,521100,0.71
2020-06-10,0.69,0.59,0.69,0.63,271600,0.63
2020-06-12,0.62,0.58,0.61,0.6,153700,0.6
2020-06-16,0.65,0.55,0.57,0.58,132400,0.58
2020-06-18,0.59,0.55,0.57,0.57,62300,0.57
2020-06-22,0.59,0.53,0.55,0.58,154800,0.58
2020-06-24,0.61,0.54,0.54,0.58,87100,0.58
2020-06-26,0.58,0.54,0.55,0.56,84700,0.56
2020-06-30,0.61,0.53,0.54,0.57,160500,0.57
2020-07-02,0.62,0.58,0.59,0.6,114900,0.6
2020-07-07,0.66,0.58,0.66,0.6,173700,0.6
2020-07-09,0.65,0.58,0.6,0.6,123100,0.6
2020-07-13,0.61,0.59,0.59,0.6,92400,0.6
2020-07-15,0.61,0.58,0.61,0.59,67200,0.59
2020-07-17,0.6,0.56,0.6,0.58,111200,0.58
2020-07-21,0.6,0.56,0.6,0.57,214600,0.57
2020-07-23,0.64,0.58,0.62,0.6,172300,0.6
2020-07-27,0.6,0.57,0.6,0.58,186100,0.58
2020-07-29,0.6,0.58,0.59,0.59,113800,0.59
2020-07-31,0.6,0.57,0.57,0.58,91000,0.58
2020-08-04,0.62,0.56,0.58,0.6,330400,0.6
2020-08-06,0.61,0.6,0.61,0.61,116400,0.61
2020-08-10,0.64,0.57,0.6,0.62,122400,0.62
2020-08-12,0.61,0.58,0.61,0.6,259700,0.6
2020-08-14,0.6,0.58,0.6,0.59,82300,0.59
2020-08-18,0.61,0.59,0.6,0.6,41500,0.6
2020-08-20,0.59,0.54,0.59,0.57,134600,0.57
2020-08-24,0.57,0.52,0.56,0.52,140500,0.52
2020-08-26,0.58,0.53,0.58,0.55,241200,0.55
2020-08-28,0.56,0.53,0.54,0.55,72800,0.55
2020-09-01,0.55,0.53,0.55,0.54,117600,0.54
2020-09-03,0.54,0.51,0.53,0.51,129400,0.51
2020-09-08,0.5,0.45,0.5,0.48,252900,0.48
2020-09-10,0.47,0.45,0.46,0.45,159400,0.45
2020-09-14,0.47,0.44,0.45,0.46,96700,0.46
2020-09-16,0.5,0.44,0.46,0.45,110200,0.45
2020-09-18,0.45,0.4,0.45,0.42,385600,0.42
2020-09-22,0.42,0.39,0.42,0.4,162600,0.4
2020-09-24,0.41,0.39,0.41,0.4,98700,0.4
2020-09-28,0.41,0.38,0.4,0.38,120600,0.38
2020-09-30,0.42,0.38,0.38,0.41,187300,0.41
2020-10-02,0.4,0.38,0.38,0.4,158900,0.4
2020-10-06,0.42,0.39,0.4,0.4,248000,0.4
2020-10-08,0.58,0.4,0.42,0.52,1294100,0.52
2020-10-12,0.48,0.43,0.48,0.45,159800,0.45
2020-10-14,0.45,0.41,0.43,0.44,173700,0.44
2020-10-16,0.46,0.44,0.45,0.45,151800,0.45
2020-10-20,0.47,0.44,0.47,0.44,67200,0.44
2020-10-22,0.53,0.41,0.45,0.45,3116300,0.45
2020-10-26,0.42,0.39,0.42,0.4,320500,0.4
2020-10-28,0.4,0.38,0.39,0.39,128100,0.39
2020-10-30,0.4,0.37,0.39,0.39,161800,0.39
2020-11-03,0.43,0.39,0.39,0.42,83200,0.42
2020-11-05,0.43,0.39,0.41,0.42,149500,0.42
2020-11-09,0.46,0.39,0.43,0.42,1091500,0.42
2020-11-11,0.44,0.42,0.44,0.44,445300,0.44
2020-11-13,0.44,0.41,0.43,0.43,154200,0.43
2020-11-17,0.44,0.41,0.43,0.42,304700,0.42
2020-11-19,0.46,0.45,0.45,0.46,268400,0.46
2020-11-23,0.48,0.45,0.47,0.48,206800,0.48
2020-11-25,0.53,0.5,0.5,0.53,737000,0.53
2020-11-30,0.53,0.5,0.51,0.51,175800,0.51
2020-12-02,0.55,0.49,0.5,0.51,371700,0.51
2020-12-04,0.75,0.64,0.64,0.73,2558500,0.73
2020-12-08,0.93,0.83,0.84,0.88,1018200,0.88
2020-12-10,1.02,0.94,0.94,1.02,817900,1.02
2020-12-14,1.05,0.91,0.99,0.93,721100,0.93
2020-12-16,0.98,0.92,0.94,0.92,184900,0.92
2020-12-18,0.97,0.9,0.97,0.9,511000,0.9
2020-12-22,0.9,0.83,0.83,0.88,264200,0.88
2020-12-24,1.02,0.94,0.95,1.01,150000,1.01
2020-12-29,0.98,0.89,0.98,0.9,181600,0.9
2020-12-31,0.98,0.92,0.96,0.96,399800,0.96
2021-01-05,0.97,0.88,0.88,0.95,393700,0.95
2021-01-07,1.04,0.94,0.99,1.0,314000,1.0
2021-01-11,1.21,1.09,1.11,1.11,396800,1.11
2021-01-13,1.18,1.09,1.16,1.12,388100,1.12
2021-01-15,1.2,1.11,1.2,1.17,449000,1.17
2021-01-20,1.18,1.08,1.16,1.13,893900,1.13
2021-01-22,1.14,1.09,1.14,1.11,333600,1.11
2021-01-26,1.09,0.93,1.06,1.05,305400,1.05
2021-01-28,1.26,1.04,1.04,1.07,1005000,1.07
2021-02-01,1.11,1.05,1.05,1.1,236400,1.1
2021-02-03,1.25,1.11,1.16,1.22,1161100,1.22
2021-02-05,1.29,1.22,1.27,1.27,324100,1.27
2021-02-09,1.38,1.3,1.34,1.36,830800,1.36
2021-02-11,1.44,1.32,1.39,1.39,514200,1.39
2021-02-16,1.43,1.33,1.42,1.43,686900,1.43
2021-02-18,1.4,1.35,1.39,1.38,296100,1.38
2021-02-22,1.48,1.35,1.4,1.47,439300,1.47
2021-02-24,1.63,1.47,1.49,1.58,780700,1.58
2021-02-26,1.53,1.36,1.44,1.45,371600,1.45
2021-03-02,1.54,1.4,1.54,1.47,381600,1.47
2021-03-04,1.52,1.38,1.45,1.46,763400,1.46
2021-03-08,1.57,1.5,1.57,1.52,226600,1.52
2021-03-10,1.6,1.47,1.57,1.59,510800,1.59
2021-03-12,1.81,1.65,1.81,1.67,257300,1.67
2021-03-16,1.84,1.7,1.81,1.77,469600,1.77
2021-03-18,1.74,1.62,1.73,1.62,474400,1.62
2021-03-22,1.73,1.61,1.7,1.65,200500,1.65
2021-03-24,1.66,1.56,1.61,1.6,323000,1.6
2021-03-26,1.67,1.61,1.63,1.65,253900,1.65
2021-03-30,1.58,1.52,1.52,1.54,83300,1.54
2021-04-01,1.68,1.58,1.6,1.61,298700,1.61
2021-04-06,1.62,1.5,1.56,1.51,438200,1.51
2021-04-08,1.5,1.42,1.46,1.5,131500,1.5
2021-04-12,1.49,1.43,1.46,1.46,257500,1.46
2021-04-14,1.6,1.46,1.46,1.58,171900,1.58